{"resourceType":"Bundle","id":"urn:uuid:a28c50de-2c65-4f51-9aeb-c356117d2c1e","meta":{"lastUpdated":"2019-11-27T11:33:30Z"},"type":"transaction","entry":[{"fullUrl":"urn:uuid:05a4673d-9bc7-49bb-a1b4-908fa1faa7bc","resource":{"resourceType":"ClinicalImpression","id":"urn:uuid:05a4673d-9bc7-49bb-a1b4-908fa1faa7bc","meta":{"profile":["http://dktk.dkfz.de/fhir/StructureDefinition/onco-core-ClinicalImpression-Verlauf"]},"status":"completed","subject":{"reference":"urn:uuid:79267d1c-faf2-4677-b628-7cfad7996542"},"effectiveDateTime":"2018-01-01","problem":[{"reference":"urn:uuid:adab404e-e738-410d-9b49-0caff1ff9708"}],"finding":[{"itemReference":{"reference":"urn:uuid:d6cd5312-bf25-46fc-8d37-1015f05c2e71"}},{"itemReference":{"reference":"urn:uuid:198d5f0b-c020-40f2-bce5-9c25824f0364"}},{"itemReference":{"reference":"urn:uuid:966673fd-d546-4fca-9a49-a3759b53c0b6"}},{"itemReference":{"reference":"urn:uuid:1b89396c-321f-487d-a0d0-84e46c8808aa"}},{"itemReference":{"reference":"urn:uuid:6accf92c-98be-48b7-aae4-b8be63d2fcb9"}},{"itemReference":{"reference":"urn:uuid:8bdbd065-d374-4e03-a4a5-7a83c847ce33"}}]},"request":{"method":"PUT","url":"ClinicalImpression/ClinicalImpression-Verlauf-example-1"}},{"fullUrl":"urn:uuid:adab404e-e738-410d-9b49-0caff1ff9708","resource":{"resourceType":"Condition","id":"urn:uuid:adab404e-e738-410d-9b49-0caff1ff9708","meta":{"profile":["http://dktk.dkfz.de/fhir/StructureDefinition/onco-core-Condition-Primaerdiagnose"]},"extension":[{"url":"http://dktk.dkfz.de/fhir/StructureDefinition/onco-core-Extension-Specimen","valueReference":{"reference":"urn:uuid:1c38efad-2791-4384-a8e4-2d18b455688a"}},{"url":"http://dktk.dkfz.de/fhir/StructureDefinition/onco-core-Extension-Fernmetastasen","valueReference":{"reference":"urn:uuid:8bdbd065-d374-4e03-a4a5-7a83c847ce33"}}],"code":{"coding":[{"system":"http://fhir.de/CodeSystem/dimdi/icd-10-gm","version":"2019","code":"C61"}]},"bodySite":[{"coding":[{"system":"urn:oid:2.16.840.1.113883.6.43.1","version":"31","code":"C61.9"},{"system":"urn:oid:2.16.840.1.113883.2.6.60.7.1.1","code":"L"}]}],"subject":{"reference":"urn:uuid:79267d1c-faf2-4677-b628-7cfad7996542"},"encounter":{"reference":"urn:uuid:5419825f-53e7-4bd3-bb13-904fb1aeadac"},"onsetDateTime":"2016-02-01","stage":[{"assessment":[{"reference":"urn:uuid:c85bdf85-66e4-45cd-b7bd-e5b6eda3b257"}]}],"evidence":[{"detail":[{"reference":"urn:uuid:7d6caddd-36fe-4583-9039-f2aa0649c9fc"}]}]},"request":{"method":"PUT","url":"Condition/Condition-Primaerdiagnose-example-1"}},{"fullUrl":"urn:uuid:5419825f-53e7-4bd3-bb13-904fb1aeadac","resource":{"resourceType":"Encounter","id":"urn:uuid:5419825f-53e7-4bd3-bb13-904fb1aeadac","meta":{"profile":["http://dktk.dkfz.de/fhir/StructureDefinition/onco-core-Encounter-Fall"]},"status":"finished","class":{"system":"http://terminology.hl7.org/CodeSystem/v3-ActCode","code":"VR","display":"virtual"},"subject":{"reference":"urn:uuid:79267d1c-faf2-4677-b628-7cfad7996542"},"diagnosis":[{"condition":{"reference":"urn:uuid:adab404e-e738-410d-9b49-0caff1ff9708"}}]},"request":{"method":"PUT","url":"Encounter/Encounter-Fall-example-1"}},{"fullUrl":"urn:uuid:2b0dd324-72d2-42ec-952a-ac9a3a73ad8e","resource":{"resourceType":"MedicationStatement","id":"urn:uuid:2b0dd324-72d2-42ec-952a-ac9a3a73ad8e","meta":{"profile":["http://dktk.dkfz.de/fhir/StructureDefinition/onco-core-MedicationStatement-Systemtherapie"]},"extension":[{"url":"http://dktk.dkfz.de/fhir/StructureDefinition/onco-core-Extension-StellungZurOp","valueCodeableConcept":{"coding":[{"system":"http://dktk.dkfz.de/fhir/onco/core/CodeSystem/SYSTStellungOPCS","code":"A","display":"adjuvant"}]}},{"url":"http://dktk.dkfz.de/fhir/StructureDefinition/onco-core-Extension-SYSTIntention","valueCodeableConcept":{"coding":[{"system":"http://dktk.dkfz.de/fhir/onco/core/CodeSystem/SYSTIntentionCS","code":"P","display":"palliativ"}]}},{"url":"http://dktk.dkfz.de/fhir/StructureDefinition/onco-core-Extension-LokaleResidualstatus","valueReference":{"reference":"urn:uuid:ab004545-24f0-41a8-8d5c-318ee7fc4e8c"}},{"url":"http://dktk.dkfz.de/fhir/StructureDefinition/onco-core-Extension-GesamtbeurteilungResidualstatus","valueReference":{"reference":"urn:uuid:aab5b813-ed74-4dd1-85f5-7eaa1d96d6e3"}}],"status":"active","category":{"coding":[{"system":"http://dktk.dkfz.de/fhir/onco/core/CodeSystem/SYSTTherapieartCS","code":"CH","display":"Chemotherapie"}]},"medicationCodeableConcept":{"coding":[{"code":"Ja"}]},"subject":{"reference":"urn:uuid:79267d1c-faf2-4677-b628-7cfad7996542"},"context":{"reference":"urn:uuid:5419825f-53e7-4bd3-bb13-904fb1aeadac"}},"request":{"method":"PUT","url":"MedicationStatement/MedicationStatement-Systemtherapie-example-1"}},{"fullUrl":"urn:uuid:8bdbd065-d374-4e03-a4a5-7a83c847ce33","resource":{"resourceType":"Observation","id":"urn:uuid:8bdbd065-d374-4e03-a4a5-7a83c847ce33","meta":{"profile":["http://dktk.dkfz.de/fhir/StructureDefinition/onco-core-Observation-Fernmetastasen"]},"status":"final","code":{"coding":[{"system":"http://loinc.org","code":"21907-1"}]},"subject":{"reference":"urn:uuid:79267d1c-faf2-4677-b628-7cfad7996542"},"encounter":{"reference":"urn:uuid:5419825f-53e7-4bd3-bb13-904fb1aeadac"},"effectiveDateTime":"2018-01-01","valueCodeableConcept":{"coding":[{"system":"http://dktk.dkfz.de/fhir/onco/core/CodeSystem/JNUCS","code":"J"}]},"bodySite":{"coding":[{"system":"http://dktk.dkfz.de/fhir/onco/core/CodeSystem/FMLokalisationCS","code":"PUL","display":"Lunge"}]}},"request":{"method":"PUT","url":"Observation/Observation-Fernmetastasen-example-1"}},{"fullUrl":"urn:uuid:aab5b813-ed74-4dd1-85f5-7eaa1d96d6e3","resource":{"resourceType":"Observation","id":"urn:uuid:aab5b813-ed74-4dd1-85f5-7eaa1d96d6e3","meta":{"profile":["http://dktk.dkfz.de/fhir/StructureDefinition/onco-core-Observation-GesamtbeurteilungResidualstatus"]},"status":"final","code":{"coding":[{"system":"http://loinc.org","code":"81169-5"}]},"subject":{"reference":"urn:uuid:79267d1c-faf2-4677-b628-7cfad7996542"},"encounter":{"reference":"urn:uuid:5419825f-53e7-4bd3-bb13-904fb1aeadac"},"effectiveDateTime":"2018-01-01","valueCodeableConcept":{"coding":[{"system":"http://dktk.dkfz.de/fhir/onco/core/CodeSystem/GesamtbeurteilungResidualstatusCS","code":"RX","display":"Vorhandensein von Residualtumor kann nicht beurteilt werden"}]}},"request":{"method":"PUT","url":"Observation/Observation-GesamtbeurteilungResidualstatus-example-1"}},{"fullUrl":"urn:uuid:6accf92c-98be-48b7-aae4-b8be63d2fcb9","resource":{"resourceType":"Observation","id":"urn:uuid:6accf92c-98be-48b7-aae4-b8be63d2fcb9","meta":{"profile":["http://dktk.dkfz.de/fhir/StructureDefinition/onco-core-Observation-GesamtbeurteilungTumorstatus"]},"status":"final","code":{"coding":[{"system":"http://loinc.org","code":"21976-6"}]},"subject":{"reference":"urn:uuid:79267d1c-faf2-4677-b628-7cfad7996542"},"encounter":{"reference":"urn:uuid:5419825f-53e7-4bd3-bb13-904fb1aeadac"},"effectiveDateTime":"2018-01-01","valueCodeableConcept":{"coding":[{"system":"http://dktk.dkfz.de/fhir/onco/core/CodeSystem/GesamtbeurteilungTumorstatusCS","code":"V","display":"Vollremission (complete remission, CR)"}]}},"request":{"method":"PUT","url":"Observation/Observation-GesamtbeurteilungTumorstatus-example-1"}},{"fullUrl":"urn:uuid:e086fb72-264e-438d-89ff-6edc3c8c4ebb","resource":{"resourceType":"Observation","id":"urn:uuid:e086fb72-264e-438d-89ff-6edc3c8c4ebb","meta":{"profile":["http://dktk.dkfz.de/fhir/StructureDefinition/onco-core-Observation-Grading"]},"status":"final","code":{"coding":[{"system":"http://loinc.org","code":"59542-1"}]},"subject":{"reference":"urn:uuid:79267d1c-faf2-4677-b628-7cfad7996542"},"encounter":{"reference":"urn:uuid:5419825f-53e7-4bd3-bb13-904fb1aeadac"},"effectiveDateTime":"2018-01-01","valueCodeableConcept":{"coding":[{"system":"http://dktk.dkfz.de/fhir/onco/core/CodeSystem/GradingCS","code":"0","display":"malignes Melanom der Konjunktiva"}]},"specimen":{"reference":"urn:uuid:1c38efad-2791-4384-a8e4-2d18b455688a"}},"request":{"method":"PUT","url":"Observation/Observation-Grading-example-1"}},{"fullUrl":"urn:uuid:7d6caddd-36fe-4583-9039-f2aa0649c9fc","resource":{"resourceType":"Observation","id":"urn:uuid:7d6caddd-36fe-4583-9039-f2aa0649c9fc","meta":{"profile":["http://dktk.dkfz.de/fhir/StructureDefinition/onco-core-Observation-Histologie"]},"status":"final","code":{"coding":[{"system":"http://loinc.org","code":"59847-4"}]},"subject":{"reference":"urn:uuid:79267d1c-faf2-4677-b628-7cfad7996542"},"encounter":{"reference":"urn:uuid:5419825f-53e7-4bd3-bb13-904fb1aeadac"},"effectiveDateTime":"2018-01-01","valueCodeableConcept":{"coding":[{"system":"urn:oid:2.16.840.1.113883.6.43.1","version":"32","code":"8140/3"}]},"specimen":{"reference":"urn:uuid:1c38efad-2791-4384-a8e4-2d18b455688a"},"hasMember":[{"reference":"urn:uuid:e086fb72-264e-438d-89ff-6edc3c8c4ebb"}]},"request":{"method":"PUT","url":"Observation/Observation-Histologie-example-1"}},{"fullUrl":"urn:uuid:ab004545-24f0-41a8-8d5c-318ee7fc4e8c","resource":{"resourceType":"Observation","id":"urn:uuid:ab004545-24f0-41a8-8d5c-318ee7fc4e8c","meta":{"profile":["http://dktk.dkfz.de/fhir/StructureDefinition/onco-core-Observation-LokaleBeurteilungResidualstatus"]},"status":"final","code":{"coding":[{"system":"http://loinc.org","code":"84892-9"}]},"subject":{"reference":"urn:uuid:79267d1c-faf2-4677-b628-7cfad7996542"},"encounter":{"reference":"urn:uuid:5419825f-53e7-4bd3-bb13-904fb1aeadac"},"effectiveDateTime":"2018-01-01","valueCodeableConcept":{"coding":[{"system":"http://dktk.dkfz.de/fhir/onco/core/CodeSystem/LokaleBeurteilungResidualstatusCS","code":"RX","display":"Vorhandensein von Residualtumor kann nicht beurteilt werden"}]}},"request":{"method":"PUT","url":"Observation/Observation-LokaleBeurteilungResidualstatus-example-1"}},{"fullUrl":"urn:uuid:966673fd-d546-4fca-9a49-a3759b53c0b6","resource":{"resourceType":"Observation","id":"urn:uuid:966673fd-d546-4fca-9a49-a3759b53c0b6","meta":{"profile":["http://dktk.dkfz.de/fhir/StructureDefinition/onco-core-Observation-LokalerTumorstatus"]},"status":"final","code":{"coding":[{"system":"http://loinc.org","code":"LA4583-6"}]},"subject":{"reference":"urn:uuid:79267d1c-faf2-4677-b628-7cfad7996542"},"encounter":{"reference":"urn:uuid:5419825f-53e7-4bd3-bb13-904fb1aeadac"},"effectiveDateTime":"2018-01-01","valueCodeableConcept":{"coding":[{"system":"http://dktk.dkfz.de/fhir/onco/core/CodeSystem/VerlaufLokalerTumorstatusCS","code":"T","display":"Tumorreste (Residualtumor)"}]}},"request":{"method":"PUT","url":"Observation/Observation-LokalerTumorstatus-example-1"}},{"fullUrl":"urn:uuid:1b89396c-321f-487d-a0d0-84e46c8808aa","resource":{"resourceType":"Observation","id":"urn:uuid:1b89396c-321f-487d-a0d0-84e46c8808aa","meta":{"profile":["http://dktk.dkfz.de/fhir/StructureDefinition/onco-core-Observation-TumorstatusFernmetastasen"]},"status":"final","code":{"coding":[{"system":"http://loinc.org","code":"LA4226-2"}]},"subject":{"reference":"urn:uuid:79267d1c-faf2-4677-b628-7cfad7996542"},"encounter":{"reference":"urn:uuid:5419825f-53e7-4bd3-bb13-904fb1aeadac"},"effectiveDateTime":"2018-01-01","valueCodeableConcept":{"coding":[{"system":"http://dktk.dkfz.de/fhir/onco/core/CodeSystem/VerlaufTumorstatusFernmetastasenCS","code":"M","display":"Verbliebene Fernmetastase(n)"}]}},"request":{"method":"PUT","url":"Observation/Observation-TumorstatusFernmetastasen-example-1"}},{"fullUrl":"urn:uuid:198d5f0b-c020-40f2-bce5-9c25824f0364","resource":{"resourceType":"Observation","id":"urn:uuid:198d5f0b-c020-40f2-bce5-9c25824f0364","meta":{"profile":["http://dktk.dkfz.de/fhir/StructureDefinition/onco-core-Observation-TumorstatusLymphknoten"]},"status":"final","code":{"coding":[{"system":"http://loinc.org","code":"LA4370-8"}]},"subject":{"reference":"urn:uuid:79267d1c-faf2-4677-b628-7cfad7996542"},"encounter":{"reference":"urn:uuid:5419825f-53e7-4bd3-bb13-904fb1aeadac"},"effectiveDateTime":"2018-01-01","valueCodeableConcept":{"coding":[{"system":"http://dktk.dkfz.de/fhir/onco/core/CodeSystem/VerlaufTumorstatusLymphknotenCS","code":"R","display":"Neu aufgetretenes Lymphknotenrezidiv"}]}},"request":{"method":"PUT","url":"Observation/Observation-TumorstatusLymphknoten-example-1"}},{"fullUrl":"urn:uuid:c85bdf85-66e4-45cd-b7bd-e5b6eda3b257","resource":{"resourceType":"Observation","id":"urn:uuid:c85bdf85-66e4-45cd-b7bd-e5b6eda3b257","meta":{"profile":["http://dktk.dkfz.de/fhir/StructureDefinition/onco-core-Observation-TNMc"]},"status":"final","code":{"coding":[{"system":"http://loinc.org","code":"21908-9"}]},"subject":{"reference":"urn:uuid:79267d1c-faf2-4677-b628-7cfad7996542"},"encounter":{"reference":"urn:uuid:5419825f-53e7-4bd3-bb13-904fb1aeadac"},"effectiveDateTime":"2018-01-01","valueCodeableConcept":{"coding":[{"system":"http://dktk.dkfz.de/fhir/onco/core/CodeSystem/UiccstadiumCS","version":"8","code":"IIIA"}]},"component":[{"code":{"coding":[{"system":"http://loinc.org","code":"21905-5"}]},"valueCodeableConcept":{"coding":[{"system":"http://dktk.dkfz.de/fhir/onco/core/CodeSystem/TNMTCS","code":"1b2"}]}},{"code":{"coding":[{"system":"http://loinc.org","code":"201906-3"}]},"valueCodeableConcept":{"coding":[{"system":"http://dktk.dkfz.de/fhir/onco/core/CodeSystem/TNMNCS","code":"0(i+)"}]}},{"code":{"coding":[{"system":"http://loinc.org","code":"21907-1"}]},"valueCodeableConcept":{"coding":[{"system":"http://dktk.dkfz.de/fhir/onco/core/CodeSystem/TNMMCS","code":"1b"}]}},{"code":{"coding":[{"system":"http://loinc.org","code":"59479-6"}]},"valueCodeableConcept":{"coding":[{"system":"http://dktk.dkfz.de/fhir/onco/core/CodeSystem/TNMySymbolCS","code":"y"}]}},{"code":{"coding":[{"system":"http://loinc.org","code":"21983-2"}]},"valueCodeableConcept":{"coding":[{"system":"http://dktk.dkfz.de/fhir/onco/core/CodeSystem/TNMrSymbolCS","code":"r"}]}},{"code":{"coding":[{"system":"http://loinc.org","code":"42030-7"}]},"valueCodeableConcept":{"coding":[{"code":"m"}]}}]},"request":{"method":"PUT","url":"Observation/Observation-TNMc-example-1"}},{"fullUrl":"urn:uuid:d6cd5312-bf25-46fc-8d37-1015f05c2e71","resource":{"resourceType":"Observation","id":"urn:uuid:d6cd5312-bf25-46fc-8d37-1015f05c2e71","meta":{"profile":["http://dktk.dkfz.de/fhir/StructureDefinition/onco-core-Observation-Vitalstatus"]},"status":"final","code":{"coding":[{"system":"http://loinc.org","code":"75186-7"}]},"subject":{"reference":"urn:uuid:79267d1c-faf2-4677-b628-7cfad7996542"},"encounter":{"reference":"urn:uuid:5419825f-53e7-4bd3-bb13-904fb1aeadac"},"effectiveDateTime":"2018-01-01","valueCodeableConcept":{"coding":[{"system":"http://dktk.dkfz.de/fhir/onco/core/CodeSystem/VitalstatusCS","code":"lebend"}]}},"request":{"method":"PUT","url":"Observation/Observation-Vitalstatus-example-1"}},{"fullUrl":"urn:uuid:c97612c9-2f36-49ee-839b-8670f387febd","resource":{"resourceType":"Organization","id":"urn:uuid:c97612c9-2f36-49ee-839b-8670f387febd","meta":{"profile":["http://dktk.dkfz.de/fhir/StructureDefinition/onco-core-Organization-Organisation"]},"name":"Musterkrankenhaus"},"request":{"method":"PUT","url":"Organization/Organization-Organisation-example-1"}},{"fullUrl":"urn:uuid:79267d1c-faf2-4677-b628-7cfad7996542","resource":{"resourceType":"Patient","id":"urn:uuid:79267d1c-faf2-4677-b628-7cfad7996542","meta":{"profile":["http://dktk.dkfz.de/fhir/StructureDefinition/onco-core-Patient-Patient"]},"name":[{"family":"Mustername","given":["Mustervorname"]}],"gender":"female","birthDate":"2000-01-01","deceasedDateTime":"2020-10-10","address":[{"city":"Musterstadt","postalCode":"37073"}]},"request":{"method":"PUT","url":"Patient/Patient-Patient-example-1"}},{"fullUrl":"urn:uuid:494b57c5-521e-4f9f-8f65-481a36623bd0","resource":{"resourceType":"Patient","id":"urn:uuid:494b57c5-521e-4f9f-8f65-481a36623bd0","meta":{"profile":["http://dktk.dkfz.de/fhir/StructureDefinition/onco-core-Patient-Pseudonym"]},"identifier":[{"type":{"coding":[{"system":"http://dktk.dkfz.de/fhir/onco/core/CodeSystem/PseudonymArtCS","code":"Global"}]},"value":"pseudonym1","assigner":{"reference":"urn:uuid:c97612c9-2f36-49ee-839b-8670f387febd"}}],"gender":"female","birthDate":"2000-01-01","deceasedDateTime":"2020-10-10","managingOrganization":{"reference":"urn:uuid:c97612c9-2f36-49ee-839b-8670f387febd"}},"request":{"method":"PUT","url":"Patient/Patient-Pseudonym-example-1"}},{"fullUrl":"urn:uuid:38c5b736-ba3a-4344-968a-8df1de86350d","resource":{"resourceType":"Procedure","id":"urn:uuid:38c5b736-ba3a-4344-968a-8df1de86350d","meta":{"profile":["http://dktk.dkfz.de/fhir/StructureDefinition/onco-core-Procedure-Operation"]},"extension":[{"url":"http://dktk.dkfz.de/fhir/StructureDefinition/onco-core-Extension-OPIntention","valueCodeableConcept":{"coding":[{"system":"http://dktk.dkfz.de/fhir/onco/core/CodeSystem/OPIntentionCS","code":"P","display":"palliativ"}]}}],"status":"completed","category":{"coding":[{"system":"http://dktk.dkfz.de/fhir/onco/core/CodeSystem/SYSTTherapieartCS","code":"OP","display":"Operation"}]},"code":{"coding":[{"system":"http://fhir.de/CodeSystem/dimdi/ops","version":"2019","code":"5-604.41"}]},"subject":{"reference":"urn:uuid:79267d1c-faf2-4677-b628-7cfad7996542"},"encounter":{"reference":"urn:uuid:5419825f-53e7-4bd3-bb13-904fb1aeadac"},"outcome":{"coding":[{"system":"http://dktk.dkfz.de/fhir/onco/core/CodeSystem/LokaleBeurteilungResidualstatusCS","code":"R0"},{"system":"http://dktk.dkfz.de/fhir/onco/core/CodeSystem/GesamtbeurteilungResidualstatusCS","code":"R0"}]}},"request":{"method":"PUT","url":"Procedure/Procedure-Operation-example-1"}},{"fullUrl":"urn:uuid:ca81b446-e34f-4b9a-b288-1394b7829e6c","resource":{"resourceType":"Procedure","id":"urn:uuid:ca81b446-e34f-4b9a-b288-1394b7829e6c","meta":{"profile":["http://dktk.dkfz.de/fhir/StructureDefinition/onco-core-Procedure-Strahlentherapie"]},"extension":[{"url":"http://dktk.dkfz.de/fhir/StructureDefinition/onco-core-Extension-StellungZurOp","valueCodeableConcept":{"coding":[{"system":"http://dktk.dkfz.de/fhir/onco/core/CodeSystem/SYSTStellungOPCS","code":"A","display":"adjuvant"}]}},{"url":"http://dktk.dkfz.de/fhir/StructureDefinition/onco-core-Extension-SYSTIntention","valueCodeableConcept":{"coding":[{"system":"http://dktk.dkfz.de/fhir/onco/core/CodeSystem/SYSTIntentionCS","code":"P","display":"palliativ"}]}}],"status":"completed","category":{"coding":[{"system":"http://dktk.dkfz.de/fhir/onco/core/CodeSystem/SYSTTherapieartCS","code":"ST","display":"Strahlentherapie"}]},"subject":{"reference":"urn:uuid:79267d1c-faf2-4677-b628-7cfad7996542"},"encounter":{"reference":"urn:uuid:5419825f-53e7-4bd3-bb13-904fb1aeadac"},"outcome":{"coding":[{"system":"http://dktk.dkfz.de/fhir/onco/core/CodeSystem/LokaleBeurteilungResidualstatusCS","code":"R0"},{"system":"http://dktk.dkfz.de/fhir/onco/core/CodeSystem/GesamtbeurteilungResidualstatusCS","code":"R0"}]}},"request":{"method":"PUT","url":"Procedure/Procedure-Strahlentherapie-example-1"}},{"fullUrl":"urn:uuid:9385b5f2-6b45-40e1-b9b6-40da30c2d191","resource":{"resourceType":"ServiceRequest","id":"urn:uuid:9385b5f2-6b45-40e1-b9b6-40da30c2d191","meta":{"profile":["http://dktk.dkfz.de/fhir/StructureDefinition/onco-core-ServiceRequest-ServiceRequest-ServiceRequest"]},"status":"completed","intent":"plan","subject":{"reference":"urn:uuid:79267d1c-faf2-4677-b628-7cfad7996542"},"encounter":{"reference":"urn:uuid:5419825f-53e7-4bd3-bb13-904fb1aeadac"},"specimen":[{"reference":"urn:uuid:1c38efad-2791-4384-a8e4-2d18b455688a"}]},"request":{"method":"PUT","url":"ServiceRequest/ServiceRequest-ServiceRequest-example-1"}},{"fullUrl":"urn:uuid:1c38efad-2791-4384-a8e4-2d18b455688a","resource":{"resourceType":"Specimen","id":"urn:uuid:1c38efad-2791-4384-a8e4-2d18b455688a","meta":{"profile":["https://fhir.bbmri.de/StructureDefinition/Specimen"]},"extension":[{"url":"https://fhir.bbmri.de/StructureDefinition/SampleDiagnosis","valueCodeableConcept":{"coding":[{"system":"https://fhir.bbmri.de/CodeSystem/OtherSampleDiagnosis","code":"unknown"}]}}],"type":{"coding":[{"system":"https://fhir.bbmri.de/CodeSystem/SampleMaterialType","code":"whole-blood"}]},"subject":{"reference":"urn:uuid:79267d1c-faf2-4677-b628-7cfad7996542"},"collection":{"collectedDateTime":"2005-06-17","bodySite":{"coding":[{"system":"urn:oid:1.3.6.1.4.1.19376.1.3.11.36","code":"C26.8"}]}}},"request":{"method":"PUT","url":"Specimen/Specimen-Specimen-example-1"}}]}